#LEMI-039 # 131
#
#	X	Y	Z
#f, Hz	S, mV/nT	Phase, ?	S, mV/nT	Phase, ?	S, mV/nT	Phase, ?
2.1000E-2	2.852E-2	1.7938E2	2.814E-2	1.7966E2	2.876E-2	1.7984E2
2.4500E-2	2.829E-2	1.7973E2	2.821E-2	1.7969E2	2.853E-2	1.7972E2
2.8584E-2	2.840E-2	1.7963E2	2.828E-2	1.7962E2	2.851E-2	1.7960E2
3.3349E-2	2.846E-2	1.7945E2	2.826E-2	1.7959E2	2.847E-2	1.7997E2
3.8907E-2	2.846E-2	1.7952E2	2.823E-2	1.7952E2	2.855E-2	1.7953E2
4.5392E-2	2.830E-2	1.7943E2	2.820E-2	1.7941E2	2.856E-2	1.7945E2
5.2959E-2	2.847E-2	1.7934E2	2.823E-2	1.7939E2	2.856E-2	1.7931E2
6.1786E-2	2.846E-2	1.7920E2	2.825E-2	1.7921E2	2.856E-2	1.7922E2
7.2084E-2	2.834E-2	1.7910E2	2.827E-2	1.7909E2	2.852E-2	1.7919E2
8.4100E-2	2.846E-2	1.7897E2	2.825E-2	1.7914E2	2.865E-2	1.7904E2
9.8118E-2	2.847E-2	1.7880E2	2.821E-2	1.7877E2	2.866E-2	1.7885E2
1.1447E-1	2.847E-2	1.7865E2	2.825E-2	1.7856E2	2.864E-2	1.7862E2
1.3355E-1	2.846E-2	1.7839E2	2.821E-2	1.7846E2	2.864E-2	1.7838E2
1.5581E-1	2.846E-2	1.7815E2	2.831E-2	1.7820E2	2.865E-2	1.7817E2
1.8179E-1	2.846E-2	1.7780E2	2.827E-2	1.7779E2	2.864E-2	1.7782E2
2.1209E-1	2.845E-2	1.7748E2	2.825E-2	1.7738E2	2.863E-2	1.7751E2
2.4744E-1	2.849E-2	1.7696E2	2.822E-2	1.7701E2	2.864E-2	1.7705E2
2.8868E-1	2.848E-2	1.7651E2	2.826E-2	1.7654E2	2.865E-2	1.7657E2
3.3680E-1	2.847E-2	1.7588E2	2.829E-2	1.7594E2	2.867E-2	1.7598E2
3.9294E-1	2.853E-2	1.7532E2	2.828E-2	1.7516E2	2.866E-2	1.7536E2
4.5843E-1	2.852E-2	1.7446E2	2.829E-2	1.7434E2	2.867E-2	1.7454E2
5.3484E-1	2.851E-2	1.7347E2	2.833E-2	1.7340E2	2.871E-2	1.7360E2
6.2399E-1	2.854E-2	1.7237E2	2.836E-2	1.7227E2	2.873E-2	1.7249E2
7.2800E-1	2.858E-2	1.7099E2	2.837E-2	1.7096E2	2.878E-2	1.7124E2
8.4935E-1	2.857E-2	1.6954E2	2.839E-2	1.6935E2	2.882E-2	1.6965E2
9.9092E-1	2.862E-2	1.6763E2	2.845E-2	1.6747E2	2.886E-2	1.6786E2
1.1561E0	2.864E-2	1.6535E2	2.845E-2	1.6518E2	2.891E-2	1.6564E2
1.3488E0	2.869E-2	1.6268E2	2.850E-2	1.6239E2	2.898E-2	1.6296E2
1.5736E0	2.864E-2	1.5934E2	2.849E-2	1.5909E2	2.897E-2	1.5974E2
1.8359E0	2.854E-2	1.5540E2	2.835E-2	1.5502E2	2.891E-2	1.5572E2
2.1419E0	2.826E-2	1.5049E2	2.812E-2	1.4998E2	2.872E-2	1.5077E2
2.4989E0	2.765E-2	1.4472E2	2.751E-2	1.4408E2	2.817E-2	1.4495E2
2.9155E0	2.658E-2	1.3801E2	2.644E-2	1.3712E2	2.718E-2	1.3802E2
3.4014E0	2.497E-2	1.3059E2	2.478E-2	1.2948E2	2.555E-2	1.3036E2
3.9684E0	2.275E-2	1.2283E2	2.249E-2	1.2159E2	2.332E-2	1.2241E2
4.6298E0	2.009E-2	1.1547E2	1.981E-2	1.1407E2	2.057E-2	1.1463E2
5.4016E0	1.734E-2	1.0889E2	1.699E-2	1.0742E2	1.766E-2	1.0771E2
6.3019E0	1.471E-2	1.0355E2	1.433E-2	1.0191E2	1.487E-2	1.0211E2
7.3523E0	1.236E-2	9.9204E1	1.200E-2	9.7734E1	1.242E-2	9.7652E1
8.5778E0	1.035E-2	9.5783E1	1.003E-2	9.4526E1	1.039E-2	9.4383E1
1.0008E1	8.667E-3	9.3165E1	8.365E-3	9.1821E1	8.646E-3	9.1697E1
1.1676E1	7.281E-3	9.1078E1	7.009E-3	8.9776E1	7.262E-3	8.9638E1
1.3622E1	6.145E-3	8.9139E1	5.905E-3	8.7982E1	6.114E-3	8.7741E1
1.5892E1	5.218E-3	8.7506E1	4.994E-3	8.6649E1	5.169E-3	8.6392E1
1.8541E1	4.414E-3	8.5736E1	4.229E-3	8.4954E1	4.348E-3	8.4507E1
2.1632E1	3.750E-3	8.4495E1	3.593E-3	8.3774E1	3.715E-3	8.3309E1
2.5238E1	3.187E-3	8.3214E1	3.029E-3	8.2259E1	3.183E-3	8.1737E1
2.9444E1	2.718E-3	8.1190E1	2.603E-3	8.1224E1	2.675E-3	8.0490E1
3.4352E1	2.304E-3	7.9398E1	2.215E-3	7.9229E1	2.251E-3	7.8025E1
4.0078E1	1.950E-3	7.7419E1	1.887E-3	7.6632E1	1.929E-3	7.6093E1
